{
  "resourceType": "Bundle",
  "id": "GFE-Bundle-Inst",
  "meta": {
    "profile": [
      "http://hl7.org/fhir/us/davinci-pct/StructureDefinition/davinci-pct-gfe-bundle-institutional"
    ]
  },
  "identifier": {
    "system": "http://example.com/identifiers/bundle",
    "value": "12348475-2324-3242-23473847"
  },
  "type": "collection",
  "timestamp": "2021-11-09T11:01:00+05:00",
  "entry": [
    {
      "fullUrl": "http://example.org/fhir/Claim/PCT-GFE-Institutional-1",
      "resource": {
        "resourceType": "Claim",
        "id": "PCT-GFE-Institutional-1",
        "meta": {
          "profile": [
            "http://hl7.org/fhir/us/davinci-pct/StructureDefinition/pct-gfe-Institutional"
          ]
        },
        "text": {
          "status": "extensions",
          "div": "<div xmlns=\"http://www.w3.org/1999/xhtml\"><p><b>Generated Narrative</b></p><p><b>GFESubmitter</b>: <a href=\"Organization-Submitter-Org-1.html\">Generated Summary: Electronic Transmitter Identification Number: ETIN-10010301; active: true; <span title=\"Codes: {http://hl7.org/fhir/us/davinci-pct/CodeSystem/PCTOrganizationTypeCS institutional-submitter}\">Institutional GFE Submitter</span>; name: GFE Service Help INC.</a></p><p><b>GFEProviderAssignedIdentifier</b>: id: GFEProviderAssignedID0001</p><p><b>ReferralNumber</b>: REF12022002-121</p><p><b>ProviderEventMethodology</b>: EEMM1021</p><p><b>InterTransIdentifier</b>: id: InterTransID0001</p><p><b>PlannedPeriodOfService</b>: 2021-10-31</p><p><b>status</b>: active</p><p><b>type</b>: <span title=\"Codes: {http://terminology.hl7.org/CodeSystem/claim-type institutional}\">Institutional</span></p><p><b>use</b>: predetermination</p><p><b>patient</b>: <a href=\"Patient-patient1001.html\">Generated Summary: Member Number: 12345, Employee number: 667788; Eve Betterhalf; Phone: 781-949-4949; gender: female; birthDate: 1955-07-23; <span title=\"Codes: {http://terminology.hl7.org/CodeSystem/v3-MaritalStatus U}\">unmarried</span></a></p><p><b>created</b>: 2021-10-05</p><p><b>insurer</b>: <a href=\"Organization-org1001.html\">Generated Summary: Electronic Transmitter Identification Number: ETIN-3200002; active: true; <span title=\"Codes: {http://terminology.hl7.org/CodeSystem/organization-type pay}\">Payer</span>; name: Umbrella Insurance Company; Phone: 860-547-5001</a></p><p><b>provider</b>: <a href=\"Organization-org1002.html\">Generated Summary: National provider identifier: 1234568095, Tax ID number: TAX-3211001; active: true; <span title=\"Codes: {http://terminology.hl7.org/CodeSystem/organization-type prov}\">Healthcare Provider</span>; name: Boston Radiology Center; Phone: 781-232-3200</a></p><p><b>priority</b>: <span title=\"Codes: {http://terminology.hl7.org/CodeSystem/processpriority normal}\">Normal</span></p><h3>Payees</h3><table class=\"grid\"><tr><td>-</td><td><b>Type</b></td></tr><tr><td>*</td><td><span title=\"Codes: {http://terminology.hl7.org/CodeSystem/payeetype provider}\">Provider</span></td></tr></table><h3>Diagnoses</h3><table class=\"grid\"><tr><td>-</td><td><b>Sequence</b></td><td><b>Diagnosis[x]</b></td><td><b>Type</b></td><td><b>PackageCode</b></td></tr><tr><td>*</td><td>1</td><td><span title=\"Codes: {http://hl7.org/fhir/sid/icd-10-cm S06.30}\">Unspecified focal traumatic brain injury</span></td><td><span title=\"Codes: {http://terminology.hl7.org/CodeSystem/ex-diagnosistype principal}\">Principal Diagnosis</span></td><td><span title=\"Codes: {http://terminology.hl7.org/CodeSystem/ex-diagnosisrelatedgroup 400}\">Head trauma - concussion</span></td></tr></table><h3>Insurances</h3><table class=\"grid\"><tr><td>-</td><td><b>Sequence</b></td><td><b>Focal</b></td><td><b>Coverage</b></td></tr><tr><td>*</td><td>1</td><td>true</td><td><a href=\"Coverage-coverage1001.html\">Generated Summary: status: active; subscriberId: PFP123450000; <span title=\"Codes: {http://terminology.hl7.org/CodeSystem/subscriber-relationship self}\">Self</span>; period: 2021-01-01 --&gt; 2022-01-01</a></td></tr></table><blockquote><p><b>item</b></p><p><b>EstimatedDateOfService</b>: 2021-10-31</p><p><b>sequence</b>: 1</p><p><b>revenue</b>: <span title=\"Codes: {http://hl7.org/fhir/us/davinci-pct/CodeSystem/PCTGFEItemRevenueCS 2011}\">Revenue Code 1</span></p><p><b>productOrService</b>: <span title=\"Codes: {http://hl7.org/fhir/us/davinci-pct/CodeSystem/PCTGFEItemCptHcpcsCS 33502}\">Some CPT Code 1</span></p><p><b>modifier</b>: <span title=\"Codes: {http://hl7.org/fhir/us/davinci-pct/CodeSystem/PCTGFEItemCptHcpcsCS 34503}\">Some CPT Code 2</span></p><p><b>quantity</b>: 1</p></blockquote></div>"
        },
        "extension": [
          {
            "url": "http://hl7.org/fhir/us/davinci-pct/StructureDefinition/gfeSubmitter",
            "valueReference": {
              "reference": "Organization/Submitter-Org-1"
            }
          },
          {
            "url": "http://hl7.org/fhir/us/davinci-pct/StructureDefinition/gfeProviderAssignedIdentifier",
            "valueIdentifier": {
              "value": "GFEProviderAssignedID0001"
            }
          },
          {
            "url": "http://hl7.org/fhir/us/davinci-pct/StructureDefinition/referralNumber",
            "valueString": "REF12022002-121"
          },
          {
            "url": "http://hl7.org/fhir/us/davinci-pct/StructureDefinition/providerEventMethodology",
            "valueString": "EEMM1021"
          },
          {
            "url": "http://hl7.org/fhir/us/davinci-pct/StructureDefinition/interTransIdentifier",
            "valueIdentifier": {
              "value": "InterTransID0001"
            }
          },
          {
            "url": "http://hl7.org/fhir/us/davinci-pct/StructureDefinition/plannedPeriodOfService",
            "valueDate": "2021-10-31"
          }
        ],
        "status": "active",
        "type": {
          "coding": [
            {
              "system": "http://terminology.hl7.org/CodeSystem/claim-type",
              "code": "institutional",
              "display": "Institutional"
            }
          ]
        },
        "use": "predetermination",
        "patient": {
          "reference": "Patient/patient1001"
        },
        "created": "2021-10-05",
        "insurer": {
          "reference": "Organization/org1001"
        },
        "provider": {
          "reference": "Organization/org1002"
        },
        "priority": {
          "coding": [
            {
              "system": "http://terminology.hl7.org/CodeSystem/processpriority",
              "code": "normal"
            }
          ]
        },
        "payee": {
          "type": {
            "coding": [
              {
                "system": "http://terminology.hl7.org/CodeSystem/payeetype",
                "code": "provider"
              }
            ]
          }
        },
        "diagnosis": [
          {
            "sequence": 1,
            "diagnosisCodeableConcept": {
              "coding": [
                {
                  "system": "http://hl7.org/fhir/sid/icd-10-cm",
                  "code": "S06.30",
                  "display": "Unspecified focal traumatic brain injury"
                }
              ]
            },
            "type": [
              {
                "coding": [
                  {
                    "system": "http://terminology.hl7.org/CodeSystem/ex-diagnosistype",
                    "code": "principal"
                  }
                ]
              }
            ],
            "packageCode": {
              "coding": [
                {
                  "system": "http://terminology.hl7.org/CodeSystem/ex-diagnosisrelatedgroup",
                  "code": "400",
                  "display": "Head trauma - concussion"
                }
              ]
            }
          }
        ],
        "insurance": [
          {
            "sequence": 1,
            "focal": true,
            "coverage": {
              "reference": "Coverage/coverage1001"
            }
          }
        ],
        "item": [
          {
            "extension": [
              {
                "url": "http://hl7.org/fhir/us/davinci-pct/StructureDefinition/estimatedDateOfService",
                "valueDate": "2021-10-31"
              }
            ],
            "sequence": 1,
            "revenue": {
              "coding": [
                {
                  "system": "http://hl7.org/fhir/us/davinci-pct/CodeSystem/PCTGFEItemRevenueCS",
                  "code": "2011",
                  "display": "Revenue Code 1"
                }
              ]
            },
            "productOrService": {
              "coding": [
                {
                  "system": "http://hl7.org/fhir/us/davinci-pct/CodeSystem/PCTGFEItemCptHcpcsCS",
                  "code": "33502",
                  "display": "Some CPT Code 1"
                }
              ]
            },
            "modifier": [
              {
                "coding": [
                  {
                    "system": "http://hl7.org/fhir/us/davinci-pct/CodeSystem/PCTGFEItemCptHcpcsCS",
                    "code": "34503",
                    "display": "Some CPT Code 2"
                  }
                ]
              }
            ],
            "quantity": {
              "value": 1
            },
            "net": {
              "value": 200,
              "currency": "USD"
            }
          }
        ],
        "total": {
          "value": 200,
          "currency": "USD"
        }
      }
    },
    {
      "fullUrl": "http://example.org/fhir/Patient/patient1001",
      "resource": {
        "resourceType": "Patient",
        "id": "patient1001",
        "meta": {
          "profile": [
            "http://hl7.org/fhir/us/davinci-pct/StructureDefinition/davinci-pct-patient"
          ]
        },
        "text": {
          "status": "generated",
          "div": "<div xmlns=\"http://www.w3.org/1999/xhtml\"><p><b>Generated Narrative</b></p><p><b>identifier</b>: Member Number: 12345, Employee number: 667788</p><p><b>name</b>: Eve Betterhalf</p><p><b>telecom</b>: ph: 781-949-4949(MOBILE)</p><p><b>gender</b>: female</p><p><b>birthDate</b>: 1955-07-23</p><p><b>address</b>: 222 Burlington Road, Bedford MA 01730</p><p><b>maritalStatus</b>: <span title=\"Codes: {http://terminology.hl7.org/CodeSystem/v3-MaritalStatus U}\">unmarried</span></p><h3>Communications</h3><table class=\"grid\"><tr><td>-</td><td><b>Language</b></td><td><b>Preferred</b></td></tr><tr><td>*</td><td><span title=\"Codes: {urn:ietf:bcp:47 en-US}\">English (United States)</span></td><td>true</td></tr></table></div>"
        },
        "identifier": [
          {
            "type": {
              "coding": [
                {
                  "system": "http://terminology.hl7.org/CodeSystem/v2-0203",
                  "code": "MB",
                  "display": "Member Number"
                }
              ]
            },
            "system": "http://example.com/identifiers/member",
            "value": "12345"
          },
          {
            "type": {
              "coding": [
                {
                  "system": "http://terminology.hl7.org/CodeSystem/v2-0203",
                  "code": "EI",
                  "display": "Employee number"
                }
              ]
            },
            "system": "http://example.com/identifiers/employee",
            "value": "667788"
          }
        ],
        "name": [
          {
            "text": "Eve Betterhalf",
            "family": "Betterhalf",
            "given": [
              "Eve"
            ]
          }
        ],
        "telecom": [
          {
            "system": "phone",
            "value": "781-949-4949",
            "use": "mobile"
          }
        ],
        "gender": "female",
        "birthDate": "1955-07-23",
        "address": [
          {
            "text": "222 Burlington Road, Bedford MA 01730"
          }
        ],
        "maritalStatus": {
          "coding": [
            {
              "system": "http://terminology.hl7.org/CodeSystem/v3-MaritalStatus",
              "code": "U",
              "display": "unmarried"
            }
          ]
        },
        "communication": [
          {
            "language": {
              "coding": [
                {
                  "system": "urn:ietf:bcp:47",
                  "code": "en-US",
                  "display": "English (United States)"
                }
              ]
            },
            "preferred": true
          }
        ]
      }
    },
    {
      "fullUrl": "http://example.org/fhir/Organization/org1001",
      "resource": {
        "resourceType": "Organization",
        "id": "org1001",
        "meta": {
          "profile": [
            "http://hl7.org/fhir/us/davinci-pct/StructureDefinition/davinci-pct-organization"
          ]
        },
        "text": {
          "status": "generated",
          "div": "<div xmlns=\"http://www.w3.org/1999/xhtml\"><p><b>Generated Narrative</b></p><p><b>identifier</b>: Electronic Transmitter Identification Number: ETIN-3200002</p><p><b>active</b>: true</p><p><b>type</b>: <span title=\"Codes: {http://terminology.hl7.org/CodeSystem/organization-type pay}\">Payer</span></p><p><b>name</b>: Umbrella Insurance Company</p><p><b>telecom</b>: ph: 860-547-5001(WORK)</p><p><b>address</b>: 680 Asylum Street Hartford CT 06155 US </p></div>"
        },
        "identifier": [
          {
            "type": {
              "coding": [
                {
                  "system": "http://hl7.org/fhir/us/davinci-pct/CodeSystem/PCTOrgIdentifierTypeCS",
                  "code": "ETIN",
                  "display": "Electronic Transmitter Identification Number"
                }
              ]
            },
            "value": "ETIN-3200002"
          }
        ],
        "active": true,
        "type": [
          {
            "coding": [
              {
                "system": "http://terminology.hl7.org/CodeSystem/organization-type",
                "code": "pay",
                "display": "Payer"
              }
            ]
          }
        ],
        "name": "Umbrella Insurance Company",
        "telecom": [
          {
            "system": "phone",
            "value": "860-547-5001",
            "use": "work"
          }
        ],
        "address": [
          {
            "extension": [
              {
                "url": "http://hl7.org/fhir/us/davinci-pct/StructureDefinition/countrySubdivisionCode",
                "valueCoding": {
                  "code": "US-CT"
                }
              }
            ],
            "line": [
              "680 Asylum Street"
            ],
            "city": "Hartford",
            "state": "CT",
            "postalCode": "06155",
            "country": "US"
          }
        ]
      }
    },
    {
      "fullUrl": "http://example.org/fhir/Organization/org1002",
      "resource": {
        "resourceType": "Organization",
        "id": "org1002",
        "meta": {
          "profile": [
            "http://hl7.org/fhir/us/davinci-pct/StructureDefinition/davinci-pct-organization"
          ]
        },
        "text": {
          "status": "generated",
          "div": "<div xmlns=\"http://www.w3.org/1999/xhtml\"><p><b>Generated Narrative</b></p><p><b>identifier</b>: National provider identifier: 1234568095, Tax ID number: TAX-3211001</p><p><b>active</b>: true</p><p><b>type</b>: <span title=\"Codes: {http://terminology.hl7.org/CodeSystem/organization-type prov}\">Healthcare Provider</span></p><p><b>name</b>: Boston Radiology Center</p><p><b>telecom</b>: ph: 781-232-3200(WORK)</p><p><b>address</b>: 32 Fruit Street Boston MA 02114 US </p></div>"
        },
        "identifier": [
          {
            "type": {
              "coding": [
                {
                  "system": "http://terminology.hl7.org/CodeSystem/v2-0203",
                  "code": "NPI",
                  "display": "National provider identifier"
                }
              ]
            },
            "system": "http://hl7.org/fhir/sid/us-npi",
            "value": "1234568095"
          },
          {
            "type": {
              "coding": [
                {
                  "system": "http://terminology.hl7.org/CodeSystem/v2-0203",
                  "code": "TAX",
                  "display": "Tax ID number"
                }
              ]
            },
            "value": "TAX-3211001"
          }
        ],
        "active": true,
        "type": [
          {
            "coding": [
              {
                "system": "http://terminology.hl7.org/CodeSystem/organization-type",
                "code": "prov",
                "display": "Healthcare Provider"
              }
            ]
          }
        ],
        "name": "Boston Radiology Center",
        "telecom": [
          {
            "system": "phone",
            "value": "781-232-3200",
            "use": "work"
          }
        ],
        "address": [
          {
            "extension": [
              {
                "url": "http://hl7.org/fhir/us/davinci-pct/StructureDefinition/countrySubdivisionCode",
                "valueCoding": {
                  "code": "US-MA"
                }
              }
            ],
            "line": [
              "32 Fruit Street"
            ],
            "city": "Boston",
            "state": "MA",
            "postalCode": "02114",
            "country": "US"
          }
        ]
      }
    },
    {
      "fullUrl": "http://example.org/fhir/Coverage/coverage1001",
      "resource": {
        "resourceType": "Coverage",
        "id": "coverage1001",
        "meta": {
          "profile": [
            "http://hl7.org/fhir/us/davinci-pct/StructureDefinition/davinci-pct-coverage"
          ]
        },
        "text": {
          "status": "generated",
          "div": "<div xmlns=\"http://www.w3.org/1999/xhtml\"><p><b>Generated Narrative</b></p><p><b>status</b>: active</p><p><b>subscriber</b>: <a href=\"Patient-patient1001.html\">Generated Summary: Member Number: 12345, Employee number: 667788; Eve Betterhalf; Phone: 781-949-4949; gender: female; birthDate: 1955-07-23; <span title=\"Codes: {http://terminology.hl7.org/CodeSystem/v3-MaritalStatus U}\">unmarried</span></a></p><p><b>subscriberId</b>: PFP123450000</p><p><b>beneficiary</b>: <a href=\"Patient-patient1001.html\">Generated Summary: Member Number: 12345, Employee number: 667788; Eve Betterhalf; Phone: 781-949-4949; gender: female; birthDate: 1955-07-23; <span title=\"Codes: {http://terminology.hl7.org/CodeSystem/v3-MaritalStatus U}\">unmarried</span></a></p><p><b>relationship</b>: <span title=\"Codes: {http://terminology.hl7.org/CodeSystem/subscriber-relationship self}\">Self</span></p><p><b>period</b>: 2021-01-01 --&gt; 2022-01-01</p><p><b>payor</b>: <a href=\"Organization-org1001.html\">Generated Summary: Electronic Transmitter Identification Number: ETIN-3200002; active: true; <span title=\"Codes: {http://terminology.hl7.org/CodeSystem/organization-type pay}\">Payer</span>; name: Umbrella Insurance Company; Phone: 860-547-5001</a></p><h3>Classes</h3><table class=\"grid\"><tr><td>-</td><td><b>Type</b></td><td><b>Value</b></td><td><b>Name</b></td></tr><tr><td>*</td><td><span title=\"Codes: {http://terminology.hl7.org/CodeSystem/coverage-class plan}\">Plan</span></td><td>Premim Family Plus</td><td>Premim Family Plus Plan</td></tr></table><h3>CostToBeneficiaries</h3><table class=\"grid\"><tr><td>-</td><td><b>Type</b></td><td><b>Value[x]</b></td></tr><tr><td>*</td><td><span title=\"Codes: {http://terminology.hl7.org/CodeSystem/coverage-copay-type copaypct}\">Copay Percentage</span></td><td>20</td></tr></table><p><b>contract</b>: <a href=\"Contract-contract1001.html\">Generated Summary: applies: 2021-01-01 --&gt; 2022-01-01; <span title=\"Codes: {http://terminology.hl7.org/CodeSystem/contract-type healthinsurance}\">Health Insurance</span></a></p></div>"
        },
        "status": "active",
        "subscriber": {
          "reference": "Patient/patient1001"
        },
        "subscriberId": "PFP123450000",
        "beneficiary": {
          "reference": "Patient/patient1001"
        },
        "relationship": {
          "coding": [
            {
              "system": "http://terminology.hl7.org/CodeSystem/subscriber-relationship",
              "code": "self",
              "display": "Self"
            }
          ]
        },
        "period": {
          "start": "2021-01-01",
          "end": "2022-01-01"
        },
        "payor": [
          {
            "reference": "Organization/org1001"
          }
        ],
        "class": [
          {
            "type": {
              "coding": [
                {
                  "system": "http://terminology.hl7.org/CodeSystem/coverage-class",
                  "code": "plan",
                  "display": "Plan"
                }
              ]
            },
            "value": "Premim Family Plus",
            "name": "Premim Family Plus Plan"
          }
        ],
        "costToBeneficiary": [
          {
            "type": {
              "coding": [
                {
                  "system": "http://terminology.hl7.org/CodeSystem/coverage-copay-type",
                  "code": "copaypct",
                  "display": "Copay Percentage"
                }
              ]
            },
            "valueQuantity": {
              "value": 20
            }
          }
        ],
        "contract": [
          {
            "reference": "Contract/contract1001"
          }
        ]
      }
    },
    {
      "fullUrl": "http://example.org/fhir/Contract/contract1001",
      "resource": {
        "resourceType": "Contract",
        "id": "contract1001",
        "text": {
          "status": "generated",
          "div": "<div xmlns=\"http://www.w3.org/1999/xhtml\"><p><b>Generated Narrative</b></p><p><b>applies</b>: 2021-01-01 --&gt; 2022-01-01</p><p><b>subject</b>: <a href=\"Patient-patient1001.html\">Generated Summary: Member Number: 12345, Employee number: 667788; Eve Betterhalf; Phone: 781-949-4949; gender: female; birthDate: 1955-07-23; <span title=\"Codes: {http://terminology.hl7.org/CodeSystem/v3-MaritalStatus U}\">unmarried</span></a></p><p><b>type</b>: <span title=\"Codes: {http://terminology.hl7.org/CodeSystem/contract-type healthinsurance}\">Health Insurance</span></p></div>"
        },
        "applies": {
          "start": "2021-01-01",
          "end": "2022-01-01"
        },
        "subject": [
          {
            "reference": "Patient/patient1001"
          }
        ],
        "type": {
          "coding": [
            {
              "system": "http://terminology.hl7.org/CodeSystem/contract-type",
              "code": "healthinsurance",
              "display": "Health Insurance"
            }
          ]
        }
      }
    }
  ]
}
